Time; AccX; AccY; AccZ; Temp; GyroX; GyroY; GyroZ;
2; -696; -472; 15128; 24.25; 3068; 147; -161
134; -592; -400; 15296; 24.25; 3035; 144; -161
237; -560; -508; 15244; 24.25; 3039; 179; -151
340; -676; -520; 15284; 24.25; 3052; 177; -174
444; -660; -456; 15380; 24.20; 3022; 163; -170
547; -476; -428; 15280; 24.15; 3050; 151; -146
651; -592; -408; 15132; 24.25; 3033; 186; -157
753; -628; -508; 15336; 24.25; 3019; 166; -158
857; -624; -532; 15188; 24.20; 3040; 187; -163
960; -532; -508; 15208; 24.29; 3040; 157; -152
1063; -516; -460; 15156; 24.29; 3042; 161; -166
1167; -624; -480; 15208; 24.25; 3016; 163; -163
1270; -516; -436; 15284; 24.25; 3041; 156; -168
1374; -708; -508; 15300; 24.25; 3063; 158; -152
1477; -568; -516; 15232; 24.25; 3029; 153; -156
1581; -752; -472; 15248; 24.25; 3025; 163; -166
1684; -592; -420; 15112; 24.34; 3034; 150; -155
1788; -620; -436; 15184; 24.15; 3052; 155; -165
1892; -668; -448; 15164; 24.20; 3069; 169; -162
1995; -628; -396; 15168; 24.20; 3033; 147; -148
2099; -652; -456; 15292; 24.29; 3048; 172; -157
2202; -544; -384; 15132; 24.20; 3022; 161; -158
2306; -508; -492; 15184; 24.29; 3042; 148; -169
2409; -488; -484; 15204; 24.20; 3044; 176; -141
2512; -636; -416; 15328; 24.25; 3045; 151; -165
2616; -624; -528; 15260; 24.15; 3048; 159; -152
2719; -740; -460; 15364; 24.15; 3056; 144; -147
2823; -652; -488; 15232; 24.25; 3033; 172; -162
2926; -660; -464; 15084; 24.25; 3047; 156; -152
3030; -668; -456; 15252; 24.25; 3047; 141; -159
3133; -588; -456; 15308; 24.25; 3055; 170; -177
3236; -524; -448; 15320; 24.25; 3030; 185; -151
3340; -656; -464; 15124; 24.34; 3040; 134; -164
3443; -608; -452; 15252; 24.15; 3024; 148; -182
3547; -604; -488; 15192; 24.25; 3024; 164; -172
3650; -696; -384; 15228; 24.34; 3063; 209; -174
3753; -620; -492; 15220; 24.25; 3072; 156; -136
3857; -608; -512; 15344; 24.25; 3104; 149; -135
3960; -596; -644; 15184; 24.15; 3098; 190; -236
4064; -664; -536; 15184; 24.25; 3065; 161; -181
4167; -692; -528; 15256; 24.25; 3053; 174; -149
4271; -528; -484; 15284; 24.15; 3030; 173; -142
4374; -568; -460; 15252; 24.25; 3044; 148; -171
4477; -676; -344; 15168; 24.15; 3032; 140; -170
4581; -568; -284; 15192; 24.25; 3055; 196; -147
4684; -624; -288; 15176; 24.15; 3051; 209; -149
4788; -600; -268; 15240; 24.25; 3060; 178; -134
4891; -596; -420; 15188; 24.15; 3076; 173; -144
4995; -688; -400; 15268; 24.25; 3028; 164; -147
5098; -584; -500; 15252; 24.25; 3089; 200; -140
5201; -648; -448; 15160; 24.25; 3073; 218; -149
5305; -764; -420; 15192; 24.25; 3293; 433; -139
5408; -772; -272; 15348; 24.34; 3475; 424; -397
5512; -832; -256; 15228; 24.15; 3662; 103; 13
5615; -728; 28; 15452; 24.20; 4518; 372; 221
5719; -800; 392; 15156; 24.20; 4130; 231; 54
5822; -736; 656; 15244; 24.25; 4074; 221; -126
5925; -812; 772; 15264; 24.25; 5076; 231; -274
6029; -728; 1400; 15268; 24.34; 5977; 192; -30
6132; -812; 2372; 15084; 24.25; 6795; 209; 135
6236; -744; 3108; 14788; 24.29; 5482; 261; 553
6339; -824; 3632; 14680; 24.11; 5987; 185; 152
6443; -708; 4368; 14680; 24.20; 6696; 225; 66
6546; -644; 5160; 14200; 24.20; 5868; 281; 431
6649; -652; 5648; 14032; 24.11; 6033; 358; 379
6753; -668; 6596; 13752; 24.29; 6767; 147; 203
6856; -684; 7204; 13280; 24.25; 4937; 689; 1068
6960; -688; 7576; 13192; 24.25; 4687; 301; 298
7063; -676; 7816; 13120; 24.15; 5759; 87; -102
7166; -596; 8784; 12560; 24.29; 8118; -363; -758
7270; -668; 9648; 12000; 24.29; 8409; -282; -331
7373; -500; 10636; 11056; 24.29; 7420; 97; 44
7477; -436; 11372; 10524; 24.20; 6440; -133; -256
7580; -320; 11760; 10040; 24.25; 6117; -317; -462
7684; -332; 12252; 9608; 24.25; 5174; 285; 220
7788; -284; 12592; 9092; 24.34; 5957; 354; 273
7891; -268; 12864; 8564; 24.15; 6186; 289; 139
7995; -324; 13412; 7924; 24.25; 6771; 354; 241
8098; -96; 14020; 7172; 24.34; 7045; 216; 187
8202; -168; 14368; 6308; 24.25; 6746; 287; 166
8305; -92; 14772; 5472; 24.25; 7292; 191; 172
8409; -100; 15244; 4704; 24.25; 7264; 222; 99
8512; 88; 15624; 3820; 24.25; 6462; 143; 101
8615; 124; 15716; 3084; 24.29; 6901; -346; 76
8719; 132; 15972; 2376; 24.29; 5662; -539; -108
8822; 112; 16004; 1740; 24.29; 6093; -931; -158
8926; 308; 16212; 1064; 24.15; 5637; -173; -47
9029; 444; 16244; 560; 24.25; 5605; -377; -223
9133; 336; 16188; 92; 24.25; 5238; 155; 14
9236; 376; 16328; -336; 24.29; 4102; 241; -47
9339; 304; 16224; -504; 24.34; 4916; 149; -23
9443; 460; 16412; -996; 24.15; 4279; 117; -188
9546; 276; 16288; -1180; 24.34; 4224; 28; -208
9650; 408; 16300; -1384; 24.34; 3447; 246; -54
9753; 548; 16460; -1456; 24.25; 2747; 316; 38
9857; 324; 16324; -1396; 24.25; 2782; 137; -144
9960; 440; 16416; -1484; 24.25; 3274; 160; -203
10063; 384; 16352; -1700; 24.39; 3124; 207; -282
10167; 388; 16384; -1400; 24.29; 3006; 154; -75
10270; 436; 16420; -1556; 24.25; 3116; 134; -134
10374; 348; 16384; -1500; 24.34; 3120; 173; -240
10477; 300; 16436; -1392; 24.29; 2986; 234; -330
10580; 412; 16384; -1504; 24.25; 3128; 190; -129
10684; 416; 16400; -1356; 24.25; 2997; 184; -183
10787; 400; 16420; -1312; 24.29; 3239; 221; -277
10891; 400; 16384; -1532; 24.29; 3098; 198; -143
10994; 400; 16336; -1508; 24.25; 3057; 161; -99
11099; 424; 16440; -1268; 24.34; 3018; 173; -165
11202; 396; 16352; -1440; 24.20; 3141; 117; -131
11305; 452; 16320; -1524; 24.34; 3125; 110; 41
11409; 464; 16324; -1532; 24.34; 3103; 192; -183
11512; 464; 16380; -1508; 24.20; 3157; 138; -173
11616; 424; 16304; -1648; 24.34; 2952; 130; -132
11719; 348; 16340; -1604; 24.20; 3115; 170; -172
11823; 484; 16276; -1580; 24.25; 2817; 147; -160
11926; 500; 16424; -1476; 24.34; 2954; 165; -172
12029; 412; 16364; -1336; 24.29; 2836; 141; -147
12133; 496; 16356; -1336; 24.25; 2802; 105; -217
12236; 436; 16424; -1320; 24.20; 2861; 114; -186
12341; 384; 16348; -1056; 24.25; 2418; 175; -120
12444; 436; 16308; -1020; 24.34; 1912; 172; -266
12548; 428; 16268; -828; 24.34; 1902; 157; -280
12651; 300; 16328; -560; 24.34; 1655; 120; -261
12754; 480; 16336; -296; 24.25; 837; 106; -347
12858; 284; 16240; 624; 24.15; 648; 114; -335
12961; 284; 16180; 1024; 24.25; 1133; 4; -351
13065; 196; 16064; 1732; 24.34; -1000; 185; -513
13168; 104; 15772; 2688; 24.29; -1195; -158; -604
13272; 80; 15540; 3644; 24.34; -901; -5; -502
13375; 76; 15384; 4356; 24.29; -688; 106; -507
13478; 108; 14948; 5208; 24.29; -656; 108; -531
13582; 12; 14596; 5852; 24.29; -1481; 73; -434
13685; -208; 14116; 6980; 24.29; -1577; -2; -386
13789; -316; 13520; 7840; 24.29; -1987; -59; -466
13892; -148; 12824; 8580; 24.39; -1643; -446; -874
13996; -108; 12104; 9732; 24.25; -1328; -704; -1049
14099; -184; 11448; 10608; 24.20; -1973; -62; -432
14202; -352; 10640; 10984; 24.25; -1909; -59; -487
14307; -364; 9760; 11820; 24.29; -1089; -141; -663
14410; -204; 8984; 12500; 24.34; -1309; 123; -310
14514; -316; 8132; 12996; 24.25; -1567; -44; -318
14617; -440; 7156; 13400; 24.29; -1394; 170; -412
14721; -324; 6196; 13972; 24.34; -1110; 170; -348
14824; -312; 5192; 14340; 24.20; -669; 142; -239
14927; -432; 4516; 14580; 24.29; -213; 208; -477
15031; -548; 3856; 14704; 24.34; -64; 231; 47
15134; -656; 3296; 14748; 24.29; 121; 363; 66
15238; -424; 2656; 14904; 24.39; -46; 312; -314
15341; -452; 1984; 15180; 24.29; 420; 107; -878
15444; -568; 1476; 15044; 24.34; 787; 278; -391
15548; -764; 828; 15136; 24.25; 671; 266; -368
15651; -604; 408; 15300; 24.34; 1334; 324; -692
15755; -608; 28; 15220; 24.34; 2758; 245; -536
15858; -608; 96; 15196; 24.34; 2773; 279; -98
15962; -804; -344; 15284; 24.34; 1699; 786; 63
16065; -744; -272; 15116; 24.25; 2678; -182; -132
16168; -440; -404; 15176; 24.20; 2999; 79; -120
16272; -516; -428; 15268; 24.34; 3031; 155; -140
16375; -620; -308; 15204; 24.29; 3058; 120; -164
16479; -716; -440; 15000; 24.20; 3058; 158; -139
16583; -700; -488; 15180; 24.34; 3034; 144; -148
16687; -708; -436; 15236; 24.34; 3046; 143; -148
16790; -688; -392; 15252; 24.34; 3049; 146; -167
16893; -732; -416; 15264; 24.29; 3048; 175; -156
16997; -592; -460; 15100; 24.39; 3050; 172; -133
17100; -604; -472; 15100; 24.34; 3036; 174; -158
17204; -556; -472; 15320; 24.25; 3034; 155; -165
17307; -588; -420; 15292; 24.25; 3015; 158; -175
17411; -652; -412; 15212; 24.39; 3043; 177; -190
17514; -720; -452; 15160; 24.39; 3043; 172; -184
17617; -692; -360; 15228; 24.34; 3064; 171; -146
17721; -680; -388; 15284; 24.34; 3040; 146; -140
17824; -624; -412; 15124; 24.39; 3047; 155; -160
17928; -640; -460; 15268; 24.29; 3061; 173; -177
18031; -648; -484; 15204; 24.34; 3045; 161; -154
18135; -628; -444; 15188; 24.34; 3037; 192; -140
18238; -512; -460; 15304; 24.29; 3030; 163; -142
18341; -744; -428; 15196; 24.34; 3017; 150; -174
18446; -672; -428; 15192; 24.25; 3052; 176; -164
18549; -636; -460; 15268; 24.39; 3015; 156; -163
18653; -700; -500; 15236; 24.39; 3060; 170; -169
18756; -636; -396; 15048; 24.34; 3054; 157; -163
18860; -656; -500; 15180; 24.25; 3071; 170; -148
18963; -692; -508; 15356; 24.29; 3043; 173; -165
19066; -716; -484; 15168; 24.34; 3064; 158; -150
19170; -640; -380; 15352; 24.34; 3038; 155; -157
19273; -656; -440; 15152; 24.39; 3054; 175; -159
19377; -652; -404; 15108; 24.39; 3039; 162; -147
19480; -640; -380; 15284; 24.25; 3046; 181; -184
19584; -664; -380; 15216; 24.25; 3046; 197; -139
19687; -568; -452; 15200; 24.29; 3048; 151; -155
19790; -656; -436; 15312; 24.34; 3043; 133; -146
19894; -660; -440; 15256; 24.34; 3055; 167; -167
19997; -680; -484; 15176; 24.39; 3045; 149; -159
20101; -652; -508; 15380; 24.34; 3060; 170; -157
20204; -676; -364; 15256; 24.34; 3015; 147; -162
20308; -616; -476; 15268; 24.34; 3046; 165; -171
20412; -684; -488; 15164; 24.29; 3050; 180; -187
20515; -680; -416; 15268; 24.25; 3029; 166; -178
20619; -632; -416; 15220; 24.34; 3033; 177; -144
20722; -612; -332; 15124; 24.29; 3089; 196; -136
20826; -572; -440; 15256; 24.39; 3130; 229; -158
20929; -688; -324; 15236; 24.25; 3218; 340; -127
21032; -736; -344; 15172; 24.25; 3411; 512; 263
21136; -708; -128; 15356; 24.29; 4257; -26; -326
21239; -832; -44; 15148; 24.29; 3383; 126; -138
21343; -776; -44; 15236; 24.39; 3742; 155; -7
21446; -716; 280; 15192; 24.29; 4386; 198; -83
21550; -644; 684; 15116; 24.29; 4521; 159; -191
21653; -820; 996; 15272; 24.34; 5021; 230; -45
21756; -760; 1500; 15148; 24.25; 5906; 198; 14
21860; -736; 2136; 15004; 24.25; 5966; 198; 208
21963; -744; 2864; 15092; 24.29; 6277; 212; 168
22067; -748; 3652; 14864; 24.34; 7039; 226; 157
22170; -648; 4484; 14648; 24.25; 7733; 202; 204
22274; -808; 5496; 14172; 24.34; 7684; 230; 298
22377; -792; 6524; 13748; 24.34; 7162; 256; 149
22481; -644; 7156; 13452; 24.39; 6221; 242; 233
22585; -716; 7884; 13220; 24.25; 6896; 210; 226
22688; -672; 8664; 12524; 24.25; 7212; 213; 266
22792; -524; 9532; 11992; 24.34; 7679; 160; 240
22895; -496; 10344; 11228; 24.34; 6798; 536; 514
22999; -408; 11052; 10808; 24.48; 6563; 283; 265
23102; -428; 11540; 10288; 24.34; 5740; 338; 138
23205; -424; 12080; 9812; 24.29; 7234; 260; 255
23309; -280; 12708; 9132; 24.34; 6664; 394; 274
23413; -288; 13132; 8424; 24.29; 6864; 336; 236
23517; -360; 13576; 7676; 24.34; 7669; 367; 460
23620; -104; 14312; 6688; 24.39; 5909; 536; 361
23724; -64; 14508; 6288; 24.39; 6494; 488; 340
23827; 24; 14960; 5532; 24.34; 6940; 336; 117
23930; 100; 15260; 4708; 24.25; 6480; 234; 45
24034; 88; 15500; 3956; 24.34; 6994; 102; 147
24137; 60; 15860; 2852; 24.39; 7270; 137; 193
24241; 116; 15840; 2504; 24.39; 6966; 34; 104
24344; 308; 16212; 1388; 24.44; 6121; 72; 91
24448; 228; 16200; 932; 24.44; 5772; 97; 54
24551; 172; 16224; -32; 24.39; 6375; -1247; -79
24654; 448; 16436; -532; 24.34; 4707; -152; -82
24758; 356; 16364; -912; 24.34; 4787; 182; -7
24861; 344; 16344; -1252; 24.44; 3026; 142; -164
24965; 512; 16296; -1092; 24.39; 1954; 367; 3
25068; 360; 16256; -912; 24.34; 2950; 370; -118
25171; 396; 16372; -1092; 24.29; 3678; 112; -275
25275; 476; 16452; -1356; 24.34; 3384; 132; -193
25378; 352; 16316; -1452; 24.39; 3079; 143; -155
25482; 308; 16348; -1324; 24.34; 2524; 168; -96
25585; 416; 16284; -1088; 24.34; 3011; 167; -180
25689; 496; 16332; -1152; 24.29; 3178; 104; -168
25793; 488; 16328; -1324; 24.34; 3186; 178; -174
25896; 396; 16372; -1360; 24.29; 2950; 150; -144
26000; 420; 16440; -1440; 24.34; 2966; 134; -153
26103; 324; 16324; -1284; 24.34; 3008; 169; -187
26207; 440; 16236; -1484; 24.39; 3311; 164; -191
26310; 364; 16360; -1376; 24.34; 2885; 160; -139
26414; 308; 16372; -1168; 24.39; 3111; 87; -190
26517; 368; 16380; -1552; 24.29; 3229; 165; -175
26620; 456; 16356; -1492; 24.34; 3034; 147; -163
26724; 368; 16356; -1368; 24.29; 2581; 4; -136
26827; 296; 16292; -1176; 24.34; 2388; 129; -138
26931; 444; 16352; -972; 24.44; 2917; 102; -239
27035; 380; 16344; -956; 24.34; 2561; 118; -202
27139; 332; 16364; -752; 24.48; 2219; 158; -178
27242; 352; 16252; -736; 24.39; 2664; 58; -276
27345; 324; 16236; -316; 24.44; 2450; 117; -121
27449; 344; 16196; -284; 24.44; 2288; 140; -207
27552; 324; 16348; -204; 24.34; 1952; 140; -267
27656; 472; 16396; 32; 24.39; 765; 140; -327
27759; 272; 16220; 624; 24.34; 598; 76; -375
27863; 252; 16164; 1196; 24.44; 912; 49; -332
27966; 284; 16060; 1728; 24.44; 1215; 94; -353
28069; 224; 16004; 2056; 24.39; 1155; -151; -397
28173; 248; 15908; 2692; 24.39; 636; 90; -351
28276; 68; 15832; 3264; 24.29; -596; 116; -456
28380; 48; 15336; 4156; 24.39; -1800; 55; -483
28483; -4; 14932; 5300; 24.39; -2468; 68; -521
28587; -176; 14392; 6448; 24.34; -1608; -16; -467
28690; -192; 13956; 7280; 24.39; -950; 23; -582
28793; -92; 13364; 8188; 24.44; -1765; 70; -416
28897; -144; 12724; 8992; 24.39; -1534; 95; -470
29000; -156; 12120; 9712; 24.44; -632; 93; -498
29104; -272; 11456; 10224; 24.39; -820; -84; -533
29207; -320; 10816; 10780; 24.39; -1338; -232; -509
29310; -224; 9876; 11676; 24.44; -1537; 164; -301
29414; -340; 9132; 12336; 24.29; -1084; 286; -195
29517; -348; 8628; 12740; 24.34; -833; 312; -137
29621; -372; 7836; 13260; 24.34; -742; -42; -769
29724; -376; 7056; 13660; 24.34; -80; 13; -639
29828; -348; 6416; 13676; 24.34; -464; 97; -362
29931; -360; 5588; 14180; 24.34; -650; 93; -431
30034; -300; 4988; 14520; 24.34; -830; 49; -641
30138; -392; 4080; 14820; 24.44; -525; 74; -468
30241; -456; 3240; 14928; 24.39; 40; 175; 62
30345; -512; 2732; 15136; 24.34; -38; 219; -257
30448; -532; 2016; 15060; 24.44; 732; 195; -388
30552; -552; 1576; 15288; 24.34; 865; 170; -282
30655; -536; 1108; 15356; 24.39; 961; 379; -243
30759; -540; 644; 15172; 24.34; 1863; 347; -192
30863; -680; 388; 15216; 24.44; 1935; 302; -383
30966; -632; 208; 15148; 24.39; 2022; 213; 100
31070; -588; 52; 15364; 24.48; 2204; 155; 144
31173; -712; 212; 15236; 24.39; 2321; 275; -238
31277; -664; -320; 15244; 24.34; 2704; -136; -152
31380; -1180; -648; 14584; 24.34; 3062; 159; -137
31483; -624; -336; 15300; 24.48; 3039; 115; -93
31587; -644; -440; 15340; 24.39; 3035; 50; -166
31690; -584; -428; 15112; 24.39; 3013; 231; -182
31794; -616; -564; 15200; 24.34; 3035; 286; -118
31897; -628; -440; 15084; 24.29; 3032; 167; -102
32001; -716; -404; 15220; 24.39; 3045; 228; -154
32104; -704; -488; 15100; 24.34; 3045; 185; -156
32207; -644; -532; 15204; 24.34; 3039; 174; -160
32311; -692; -444; 15188; 24.39; 3034; 163; -147
32414; -720; -424; 15168; 24.34; 3039; 140; -172
32518; -732; -328; 15268; 24.34; 3033; 141; -111
32621; -660; -484; 15344; 24.39; 3048; 147; -115
32724; -668; -588; 15160; 24.39; 3062; 173; -173
32829; -824; -520; 15236; 24.34; 3067; 171; -176
32932; -708; -480; 15104; 24.34; 3050; 164; -142
33036; -736; -536; 15240; 24.39; 3019; 177; -133
33139; -668; -540; 15224; 24.39; 3045; 165; -165
33243; -612; -432; 15204; 24.39; 3019; 174; -202
33346; -748; -368; 15224; 24.34; 3035; 163; -157
33449; -592; -504; 15320; 24.34; 3042; 178; -110
33553; -632; -464; 15252; 24.39; 3052; 150; -122
33656; -652; -508; 15260; 24.39; 3068; 149; -177
33760; -624; -460; 15200; 24.34; 3055; 154; -179
33863; -752; -452; 15248; 24.34; 3045; 150; -136
33967; -660; -560; 15164; 24.39; 3043; 149; -132
34070; -604; -404; 15260; 24.39; 3044; 168; -184
34173; -696; -488; 15156; 24.44; 3040; 154; -168
34277; -732; -448; 15152; 24.44; 3052; 146; -150
34380; -464; -420; 15192; 24.39; 3044; 159; -114
34484; -716; -452; 15180; 24.48; 3031; 158; -149
34587; -712; -516; 15184; 24.34; 3063; 141; -173
34692; -688; -492; 15236; 24.29; 3034; 189; -164
34795; -692; -472; 15364; 24.39; 3049; 151; -140
34898; -604; -444; 15220; 24.44; 3037; 149; -158
35002; -756; -432; 15284; 24.44; 3038; 155; -183
35105; -712; -436; 15212; 24.29; 3050; 183; -178
35209; -684; -448; 15196; 24.34; 3049; 189; -134
35312; -660; -424; 15220; 24.44; 3059; 159; -127
35416; -688; -524; 15332; 24.48; 3034; 179; -175
35519; -752; -444; 15192; 24.39; 3049; 176; -192
35622; -784; -480; 15280; 24.44; 3040; 136; -146
35726; -608; -532; 15120; 24.44; 3047; 140; -139
35829; -728; -560; 15128; 24.39; 3047; 145; -159
35933; -684; -492; 15212; 24.39; 3051; 153; -166
36036; -704; -320; 15300; 24.44; 3051; 163; -165
36140; -708; -416; 15188; 24.39; 3022; 168; -129